Folder: phd_thesis/Code/Raman_data

File: _2017_09_28_11_05_41_film_duospot_30um_01.txt
33.2913	31.1577
41.3165	84.9426
49.3355	93.756
57.3482	63.8072
65.3546	111.131
73.3548	115.412
81.3474	95.7474
89.3337	86.7082
97.3151	93.1577
105.289	92.3646
113.255	85.4259
121.217	95.7513
129.172	103.018
137.12	96.7886
145.061	109.498
152.996	104.606
160.926	100.837
168.849	163.135
176.765	152.997
184.675	133.994
192.578	116.246
200.475	108.292
208.366	107.752
216.251	112.346
224.129	104.734
232.001	124.984
239.866	104.474
247.725	90.3747
255.578	96.9453
263.425	134.153
271.265	108.625
279.099	122.587
286.927	130.213
294.749	177.466
302.564	163.825
310.372	204.466
318.175	257.831
325.972	229.559
333.762	220.175
341.546	339.152
349.324	737.59
357.096	2073.81
364.861	249.237
372.621	187.206
380.373	148.145
388.12	138.015
395.861	154.213
403.595	185.485
411.324	338.725
419.046	2268.89
426.762	210.287
434.473	135.84
442.175	135.816
449.873	133.737
457.565	137.596
465.25	131.577
472.931	141.9
480.604	156.373
488.271	168.133
495.931	171.039
503.587	144.891
511.235	151.337
518.879	201.366
526.516	276.392
534.145	163.797
541.77	163.637
549.39	156.756
557.002	123.062
564.608	126.83
572.209	147.713
579.804	211.848
587.393	233.399
594.975	138.747
602.552	127.709
610.123	129.773
617.688	121.62
625.245	141.185
632.799	137.217
640.345	154.917
647.887	146.748
655.421	151.744
662.951	158.206
670.473	163.183
677.99	172.244
685.501	176.802
693.006	174.053
700.506	215.842
707.999	244.147
715.487	219.046
722.969	169.986
730.445	166.044
737.915	172.299
745.38	165.812
752.837	175.635
760.29	170.693
767.736	171.626
775.178	155.493
782.613	144.325
790.041	132.887
797.465	140.765
804.883	129.59
812.294	144.725
819.7	149.052
827.1	143.488
834.495	144.147
841.883	141.196
849.266	146.458
856.643	151.363
864.015	144.331
871.38	148.459
878.739	139.964
886.094	155.618
893.442	152.078
900.785	142.777
908.122	144.406
915.453	139.409
922.778	132.774
930.097	135.209
937.411	147.86
944.72	136.358
952.023	138.133
959.32	135.988
966.611	147.512
973.897	134.218
981.177	136.48
988.451	132.674
995.721	128.812
1002.98	145.546
1010.24	141.3
1017.49	131.897
1024.74	156.546
1031.98	152.953
1039.22	155.249
1046.44	145.297
1053.67	149.602
1060.89	141.226
1068.1	160.906
1075.3	143.278
1082.51	136.341
1089.7	139.653
1096.89	133.335
1104.08	156.669
1111.26	151.226
1118.43	152.899
1125.6	144.984
1132.76	155.696
1139.92	134.952
1147.07	133.719
1154.22	145.095
1161.36	135.747
1168.49	137.847
1175.62	138.304
1182.75	125.083
1189.87	133.529
1196.98	138.994
1204.09	124.695
1211.19	141.302
1218.29	151.523
1225.38	143.053
1232.47	138.68
1239.54	136.805
1246.62	138.903
1253.69	141.13
1260.75	148.161
1267.81	146.071
1274.87	126.935
1281.91	122.462
1288.96	129.646
1296	127.784
1303.03	115.122
1310.05	135.58
1317.07	132.672
1324.09	122.448
1331.1	133.336
1338.11	138.945
1345.11	124.436
1352.1	118.26
1359.09	128.914
1366.07	131.451
1373.05	133.135
1380.02	129.885
1386.99	129.997
1393.95	119.256
1400.91	136.729
1407.86	127.263
1414.81	134.812
1421.75	121.722
1428.69	129.171
1435.62	129.495
1442.54	133.567
1449.46	133.498
1456.38	119.153
1463.29	120.477
1470.19	134.393
1477.09	116.427
1483.99	140.297
1490.88	136.678
1497.76	112.146
1504.64	116.839
1511.51	117.256
1518.38	126.761
1525.24	117.478
1532.1	123.566
1538.95	117.932
1545.8	128.346
1552.64	133.993
1559.48	122.092
1566.31	121.502
1573.14	124.705
1579.96	115.794
1586.77	116.644
1593.58	122.149
1600.39	115.232
1607.19	116.996
1613.99	110.342
1620.78	112.32
1627.56	111.17
1634.34	120.537
1641.12	118.119
1647.89	109.98
1654.65	101.871
1661.41	111.169
1668.17	105.001
1674.92	94.6357
1681.66	110.729
1688.4	105.69
1695.14	117.718
1701.87	105.753
1708.59	109.026
1715.31	101.393
1722.03	93.5301
1728.73	101.796
1735.44	106.402
1742.14	103.731
1748.83	99.3114
1755.52	117.654
1762.21	101.778
1768.88	110.825
1775.56	110.084
1782.23	99.6615
1788.89	104.312
1795.55	91.7602
1802.21	91.1761
1808.86	101.057
1815.5	104.042
1822.14	93.009
1828.78	112.419
1835.4	90.9356
1842.03	87.2251
1848.65	96.5835
1855.26	82.2714
1861.87	90.6324
1868.48	93.8122
1875.08	101.855
1881.67	94.3841
1888.26	102.239
1894.85	81.6866
1901.43	85.9893
1908.01	80.8242
1914.58	85.6498
1921.14	83.7412
1927.7	88.9723
1934.26	77.7537
1940.81	93.3706
1947.35	85.7607
1953.9	79.5719
1960.43	81.0762
1966.96	79.1875
1973.49	85.4529
1980.01	89.655
1986.53	84.7445
1993.04	89.9856
1999.55	86.3585
2006.05	82.6482
2012.55	86.088
2019.04	87.8023
2025.53	85.7599
2032.02	81.5555
2038.5	76.8749
2044.97	78.8986
2051.44	84.4642
2057.9	83.8569
2064.36	80.182
2070.82	74.742
2077.27	90.8767
2083.71	77.6907
2090.15	74.8596
2096.59	73.5845
2103.02	79.2291
2109.45	75.5874
2115.87	76.9763
2122.28	73.3681
2128.7	76.2944
2131.44	73.2611